Folder: Sandbox-NodeJS

File: 47-Black(1).txt
/////////////////////////////////////////////////////////////////////////////////
/// Profile Data Ascii Dump (XRD)                                             ///
/////////////////////////////////////////////////////////////////////////////////

  Group     : Fom
  Data      : K3PO4-47-Bott
  File Name : K3PO4-47-Bott.RAW

# Data      [ Total No. = 2501 ]
  <2Theta>   <   I   >
    10.0000        68
    10.1800        78
    10.3600        78
    10.5400        74
    10.7200        66
    10.9000        68
    11.0800        96
    11.2600        82
    11.4400        66
    11.6200        48
    11.8000        56
    11.9800        64
    12.1600        50
    12.3400        62
    12.5200        54
    12.7000        52
    12.8800        42
    13.0600        46
    13.2400        50
    13.4200        54
    13.6000        46
    13.7800        40
    13.9600        48
    14.1400        40
    14.3200        34
    14.5000        36
    14.6800        36
    14.8600        38
    15.0400        48
    15.2200        74
    15.4000        92
    15.5800       474
    15.7600        66
    15.9400        38
    16.1200        42
    16.3000        28
    16.4800        28
    16.6600        38
    16.8400        38
    17.0200        42
    17.2000        68
    17.3800       182
    17.5600       178
    17.7400        50
    17.9200        34
    18.1000        34
    18.2800        32
    18.4600        38
    18.6400        30
    18.8200        32
    19.0000        42
    19.1800        46
    19.3600        40
    19.5400        28
    19.7200        58
    19.9000        34
    20.0800        46
    20.2600        36
    20.4400        34
    20.6200        34
    20.8000        28
    20.9800        40
    21.1600        20
    21.3400        42
    21.5200        10
    21.7000        34
    21.8800        30
    22.0600        48
    22.2400       136
    22.4200        46
    22.6000        36
    22.7800        26
    22.9600        40
    23.1400        22
    23.3200        20
    23.5000        22
    23.6800        26
    23.8600        26
    24.0400        16
    24.2200        36
    24.4000        84
    24.5800        66
    24.7600       478
    24.9400       348
    25.1200        44
    25.3000        26
    25.4800        36
    25.6600        80
    25.8400        28
    26.0200        20
    26.2000        18
    26.3800        28
    26.5600        16
    26.7400        14
    26.9200        24
    27.1000        16
    27.2800        20
    27.4600        28
    27.6400        18
    27.8200        20
    28.0000        60
    28.1800        36
    28.3600       112
    28.5400       128
    28.7200        30
    28.9000        28
    29.0800       116
    29.2600       204
    29.4400        26
    29.6200        18
    29.8000        12
    29.9800        16
    30.1600        16
    30.3400        12
    30.5200        20
    30.7000        18
    30.8800        12
    31.0600        20
    31.2400        14
    31.4200        10
    31.6000        24
    31.7800        12
    31.9600        28
    32.1400        62
    32.3200       266
    32.5000        56
    32.6800        34
    32.8600        16
    33.0400        20
    33.2200        42
    33.4000        84
    33.5800        26
    33.7600        14
    33.9400        16
    34.1200        28
    34.3000        68
    34.4800        16
    34.6600         8
    34.8400        16
    35.0200        14
    35.2000        24
    35.3800       166
    35.5600       240
    35.7400        38
    35.9200        10
    36.1000        12
    36.2800         8
    36.4600         4
    36.6400        12
    36.8200        20
    37.0000        70
    37.1800        22
    37.3600         8
    37.5400         8
    37.7200         6
    37.9000         8
    38.0800         4
    38.2600        14
    38.4400        10
    38.6200         6
    38.8000         8
    38.9800        12
    39.1600        16
    39.3400        36
    39.5200       132
    39.7000        28
    39.8800        52
    40.0600        48
    40.2400        64
    40.4200       110
    40.6000        38
    40.7800        16
    40.9600        20
    41.1400        14
    41.3200        18
    41.5000         8
    41.6800         8
    41.8600        12
    42.0400         8
    42.2200        10
    42.4000        14
    42.5800        12
    42.7600        28
    42.9400        98
    43.1200       118
    43.3000        36
    43.4800        12
    43.6600         6
    43.8400         8
    44.0200         4
    44.2000         6
    44.3800        12
    44.5600         8
    44.7400         8
    44.9200        10
    45.1000        12
    45.2800        20
    45.4600        38
    45.6400        12
    45.8200        12
    46.0000        14
    46.1800        12
    46.3600        14
    46.5400        46
    46.7200       178
    46.9000        92
    47.0800        60
    47.2600       126
    47.4400        50
    47.6200        18
    47.8000        12
    47.9800        16
    48.1600       110
    48.3400        66
    48.5200        26
    48.7000        34
    48.8800        60
    49.0600        24
    49.2400        22
    49.4200        28
    49.6000        22
    49.7800        12
    49.9600         8
    50.1400        14
    50.3200        18
    50.5000        12
    50.6800        18
    50.8600        18
    51.0400        26
    51.2200        20
    51.4000        14
    51.5800         8
    51.7600         6
    51.9400        24
    52.1200        14
    52.3000        14
    52.4800        12
    52.6600        20
    52.8400        68
    53.0200        82
    53.2000        30
    53.3800        14
    53.5600         8
    53.7400        16
    53.9200        44
    54.1000       186
    54.2800       150
    54.4600        46
    54.6400        22
    54.8200        12
    55.0000         6
    55.1800         8
    55.3600         6
    55.5400         8
    55.7200         6
    55.9000         4
    56.0800        10
    56.2600        12
    56.4400         8
    56.6200        10
    56.8000         4
    56.9800         8
    57.1600         2
    57.3400         8
    57.5200         8
    57.7000        12
    57.8800         2
    58.0600         8
    58.2400         8
    58.4200         2
    58.6000         4
    58.7800         2
    58.9600         4
    59.1400         4
    59.3200         6
    59.5000         8
    59.6800         0
    59.8600        10
    60.0000         8